 [antenna_pattern.dat]

  É” = 0.000 Åãplane
   É∆(deg)       EÉ”       EÉ∆       ER        EL 
     0.000  -10.7779   -0.0125   -1.2035   -0.2945
     1.000  -10.7333   -0.0014   -1.2590   -0.2254
     2.000  -10.6900   -0.0000   -1.3250   -0.1658
     3.000  -10.6479   -0.0083   -1.4015   -0.1156
     4.000  -10.6071   -0.0262   -1.4889   -0.0745
     5.000  -10.5674   -0.0538   -1.5870   -0.0425
     6.000  -10.5291   -0.0910   -1.6963   -0.0195
     7.000  -10.4920   -0.1378   -1.8167   -0.0054
     8.000  -10.4562   -0.1943   -1.9485    0.0000
     9.000  -10.4216   -0.2603   -2.0919   -0.0032
    10.000  -10.3884   -0.3360   -2.2471   -0.0150
    11.000  -10.3564   -0.4213   -2.4143   -0.0352
    12.000  -10.3257   -0.5162   -2.5938   -0.0636
    13.000  -10.2963   -0.6208   -2.7858   -0.1003
    14.000  -10.2681   -0.7349   -2.9906   -0.1450
    15.000  -10.2412   -0.8588   -3.2086   -0.1977
    16.000  -10.2156   -0.9922   -3.4400   -0.2583
    17.000  -10.1912   -1.1354   -3.6853   -0.3265
    18.000  -10.1681   -1.2882   -3.9448   -0.4024
    19.000  -10.1462   -1.4508   -4.2191   -0.4858
    20.000  -10.1255   -1.6231   -4.5085   -0.5766
    21.000  -10.1060   -1.8052   -4.8137   -0.6746
    22.000  -10.0878   -1.9971   -5.1352   -0.7797
    23.000  -10.0707   -2.1989   -5.4738   -0.8918
    24.000  -10.0547   -2.4106   -5.8300   -1.0107
    25.000  -10.0399   -2.6322   -6.2048   -1.1364
    26.000  -10.0263   -2.8638   -6.5990   -1.2685
    27.000  -10.0137   -3.1054   -7.0137   -1.4071
    28.000  -10.0022   -3.3572   -7.4499   -1.5520
    29.000   -9.9918   -3.6191   -7.9089   -1.7029
    30.000   -9.9824   -3.8912   -8.3921   -1.8597
    31.000   -9.9740   -4.1737   -8.9010   -2.0222
    32.000   -9.9666   -4.4665   -9.4375   -2.1902
    33.000   -9.9602   -4.7698  -10.0034   -2.3636
    34.000   -9.9547   -5.0837  -10.6008   -2.5421
    35.000   -9.9501   -5.4083  -11.2322   -2.7255
    36.000   -9.9464   -5.7436  -11.9001   -2.9135
    37.000   -9.9435   -6.0898  -12.6072   -3.1061
    38.000   -9.9415   -6.4470  -13.3562   -3.3028
    39.000   -9.9402   -6.8154  -14.1495   -3.5034
    40.000   -9.9397   -7.1950  -14.9889   -3.7077
    41.000   -9.9399   -7.5860  -15.8745   -3.9153
    42.000   -9.9409   -7.9886  -16.8029   -4.1261
    43.000   -9.9424   -8.4029  -17.7650   -4.3396
    44.000   -9.9447   -8.8291  -18.7411   -4.5555
    45.000   -9.9475   -9.2674  -19.6946   -4.7736
    46.000   -9.9509   -9.7180  -20.5659   -4.9934
    47.000   -9.9548  -10.1810  -21.2720   -5.2146
    48.000   -9.9592  -10.6568  -21.7222   -5.4367
    49.000   -9.9641  -11.1454  -21.8553   -5.6595
    50.000   -9.9694  -11.6473  -21.6740   -5.8826
    51.000   -9.9751  -12.1625  -21.2429   -6.1054
    52.000   -9.9812  -12.6915  -20.6528   -6.3276
    53.000   -9.9876  -13.2344  -19.9853   -6.5487
    54.000   -9.9944  -13.7916  -19.2978   -6.7684
    55.000  -10.0013  -14.3634  -18.6252   -6.9861
    56.000  -10.0086  -14.9501  -17.9860   -7.2014
    57.000  -10.0160  -15.5521  -17.3885   -7.4139
    58.000  -10.0236  -16.1696  -16.8356   -7.6231
    59.000  -10.0313  -16.8032  -16.3268   -7.8286
    60.000  -10.0392  -17.4532  -15.8600   -8.0299
    61.000  -10.0471  -18.1199  -15.4325   -8.2267
    62.000  -10.0550  -18.8039  -15.0416   -8.4184
    63.000  -10.0630  -19.5057  -14.6841   -8.6049
    64.000  -10.0710  -20.2256  -14.3575   -8.7856
    65.000  -10.0789  -20.9643  -14.0590   -8.9603
    66.000  -10.0868  -21.7223  -13.7863   -9.1287
    67.000  -10.0945  -22.5001  -13.5373   -9.2904
    68.000  -10.1022  -23.2984  -13.3101   -9.4454
    69.000  -10.1097  -24.1181  -13.1027   -9.5934
    70.000  -10.1170  -24.9598  -12.9136   -9.7342
    71.000  -10.1241  -25.8245  -12.7413   -9.8678
    72.000  -10.1310  -26.7133  -12.5844   -9.9942
    73.000  -10.1376  -27.6276  -12.4417  -10.1133
    74.000  -10.1440  -28.5690  -12.3119  -10.2252
    75.000  -10.1501  -29.5395  -12.1939  -10.3301
    76.000  -10.1559  -30.0000  -12.0869  -10.4281
    77.000  -10.1614  -30.0000  -11.9897  -10.5193
    78.000  -10.1666  -30.0000  -11.9015  -10.6041
    79.000  -10.1713  -30.0000  -11.8214  -10.6827
    80.000  -10.1758  -30.0000  -11.7486  -10.7555
    81.000  -10.1798  -30.0000  -11.6823  -10.8228
    82.000  -10.1835  -30.0000  -11.6218  -10.8851
    83.000  -10.1867  -30.0000  -11.5663  -10.9428
    84.000  -10.1895  -30.0000  -11.5150  -10.9963
    85.000  -10.1920  -30.0000  -11.4674  -11.0462
    86.000  -10.1939  -30.0000  -11.4226  -11.0930
    87.000  -10.1955  -30.0000  -11.3802  -11.1372
    88.000  -10.1966  -30.0000  -11.3393  -11.1793
    89.000  -10.1973  -30.0000  -11.2994  -11.2200
    90.000  -10.1975  -30.0000  -11.2599  -11.2599
    91.000  -10.1973  -30.0000  -11.2200  -11.2994
    92.000  -10.1966  -30.0000  -11.1793  -11.3393
    93.000  -10.1955  -30.0000  -11.1372  -11.3802
    94.000  -10.1939  -30.0000  -11.0930  -11.4226
    95.000  -10.1920  -30.0000  -11.0462  -11.4674
    96.000  -10.1895  -30.0000  -10.9963  -11.5150
    97.000  -10.1867  -30.0000  -10.9428  -11.5663
    98.000  -10.1835  -30.0000  -10.8851  -11.6218
    99.000  -10.1798  -30.0000  -10.8228  -11.6823
   100.000  -10.1758  -30.0000  -10.7555  -11.7486
   101.000  -10.1713  -30.0000  -10.6827  -11.8214
   102.000  -10.1666  -30.0000  -10.6041  -11.9015
   103.000  -10.1614  -30.0000  -10.5193  -11.9897
   104.000  -10.1559  -30.0000  -10.4281  -12.0869
   105.000  -10.1501  -29.5395  -10.3301  -12.1939
   106.000  -10.1440  -28.5690  -10.2252  -12.3119
   107.000  -10.1376  -27.6276  -10.1133  -12.4417
   108.000  -10.1310  -26.7133   -9.9942  -12.5844
   109.000  -10.1241  -25.8245   -9.8678  -12.7413
   110.000  -10.1170  -24.9598   -9.7342  -12.9136
   111.000  -10.1097  -24.1181   -9.5934  -13.1027
   112.000  -10.1022  -23.2984   -9.4454  -13.3101
   113.000  -10.0945  -22.5001   -9.2904  -13.5373
   114.000  -10.0868  -21.7223   -9.1287  -13.7863
   115.000  -10.0789  -20.9643   -8.9603  -14.0590
   116.000  -10.0710  -20.2256   -8.7856  -14.3575
   117.000  -10.0630  -19.5057   -8.6049  -14.6841
   118.000  -10.0550  -18.8039   -8.4184  -15.0416
   119.000  -10.0471  -18.1199   -8.2267  -15.4325
   120.000  -10.0392  -17.4532   -8.0299  -15.8600
   121.000  -10.0313  -16.8032   -7.8286  -16.3268
   122.000  -10.0236  -16.1696   -7.6231  -16.8356
   123.000  -10.0160  -15.5521   -7.4139  -17.3885
   124.000  -10.0086  -14.9501   -7.2014  -17.9860
   125.000  -10.0013  -14.3634   -6.9861  -18.6252
   126.000   -9.9944  -13.7916   -6.7684  -19.2978
   127.000   -9.9876  -13.2344   -6.5487  -19.9853
   128.000   -9.9812  -12.6915   -6.3276  -20.6528
   129.000   -9.9751  -12.1625   -6.1054  -21.2429
   130.000   -9.9694  -11.6473   -5.8826  -21.6740
   131.000   -9.9641  -11.1454   -5.6595  -21.8553
   132.000   -9.9592  -10.6568   -5.4367  -21.7222
   133.000   -9.9548  -10.1810   -5.2146  -21.2720
   134.000   -9.9509   -9.7180   -4.9934  -20.5659
   135.000   -9.9475   -9.2674   -4.7736  -19.6946
   136.000   -9.9447   -8.8291   -4.5555  -18.7411
   137.000   -9.9424   -8.4029   -4.3396  -17.7650
   138.000   -9.9409   -7.9886   -4.1261  -16.8029
   139.000   -9.9399   -7.5860   -3.9153  -15.8745
   140.000   -9.9397   -7.1950   -3.7077  -14.9889
   141.000   -9.9402   -6.8154   -3.5034  -14.1495
   142.000   -9.9415   -6.4470   -3.3028  -13.3562
   143.000   -9.9435   -6.0898   -3.1061  -12.6072
   144.000   -9.9464   -5.7436   -2.9135  -11.9001
   145.000   -9.9501   -5.4083   -2.7255  -11.2322
   146.000   -9.9547   -5.0837   -2.5421  -10.6008
   147.000   -9.9602   -4.7698   -2.3636  -10.0034
   148.000   -9.9666   -4.4665   -2.1902   -9.4375
   149.000   -9.9740   -4.1737   -2.0222   -8.9010
   150.000   -9.9824   -3.8912   -1.8597   -8.3921
   151.000   -9.9918   -3.6191   -1.7029   -7.9089
   152.000  -10.0022   -3.3572   -1.5520   -7.4499
   153.000  -10.0137   -3.1054   -1.4071   -7.0137
   154.000  -10.0263   -2.8638   -1.2685   -6.5990
   155.000  -10.0399   -2.6322   -1.1364   -6.2048
   156.000  -10.0547   -2.4106   -1.0107   -5.8300
   157.000  -10.0707   -2.1989   -0.8918   -5.4738
   158.000  -10.0878   -1.9971   -0.7797   -5.1352
   159.000  -10.1060   -1.8052   -0.6746   -4.8137
   160.000  -10.1255   -1.6231   -0.5766   -4.5085
   161.000  -10.1462   -1.4508   -0.4858   -4.2191
   162.000  -10.1681   -1.2882   -0.4024   -3.9448
   163.000  -10.1912   -1.1354   -0.3265   -3.6853
   164.000  -10.2156   -0.9922   -0.2583   -3.4400
   165.000  -10.2412   -0.8588   -0.1977   -3.2086
   166.000  -10.2681   -0.7349   -0.1450   -2.9906
   167.000  -10.2963   -0.6208   -0.1003   -2.7858
   168.000  -10.3257   -0.5162   -0.0636   -2.5938
   169.000  -10.3564   -0.4213   -0.0352   -2.4143
   170.000  -10.3884   -0.3360   -0.0150   -2.2471
   171.000  -10.4216   -0.2603   -0.0032   -2.0919
   172.000  -10.4562   -0.1943   -0.0000   -1.9485
   173.000  -10.4920   -0.1378   -0.0054   -1.8167
   174.000  -10.5291   -0.0910   -0.0195   -1.6963
   175.000  -10.5674   -0.0538   -0.0425   -1.5870
   176.000  -10.6071   -0.0262   -0.0745   -1.4889
   177.000  -10.6479   -0.0083   -0.1156   -1.4015
   178.000  -10.6900    0.0000   -0.1658   -1.3250
   179.000  -10.7333   -0.0014   -0.2254   -1.2590
   180.000  -10.7779   -0.0125   -0.2945   -1.2035
   181.000  -10.8236   -0.0334   -0.3732   -1.1583
   182.000  -10.8705   -0.0640   -0.4616   -1.1233
   183.000  -10.9186   -0.1043   -0.5598   -1.0985
   184.000  -10.9678   -0.1545   -0.6681   -1.0837
   185.000  -11.0181   -0.2146   -0.7866   -1.0788
   186.000  -11.0695   -0.2845   -0.9154   -1.0837
   187.000  -11.1219   -0.3644   -1.0547   -1.0984
   188.000  -11.1754   -0.4542   -1.2047   -1.1227
   189.000  -11.2299   -0.5541   -1.3655   -1.1566
   190.000  -11.2853   -0.6640   -1.5375   -1.1999
   191.000  -11.3417   -0.7841   -1.7207   -1.2527
   192.000  -11.3990   -0.9144   -1.9155   -1.3148
   193.000  -11.4571   -1.0550   -2.1221   -1.3862
   194.000  -11.5161   -1.2060   -2.3407   -1.4667
   195.000  -11.5759   -1.3674   -2.5716   -1.5564
   196.000  -11.6364   -1.5393   -2.8151   -1.6551
   197.000  -11.6976   -1.7218   -3.0716   -1.7627
   198.000  -11.7594   -1.9151   -3.3414   -1.8793
   199.000  -11.8218   -2.1191   -3.6249   -2.0047
   200.000  -11.8848   -2.3341   -3.9225   -2.1389
   201.000  -11.9484   -2.5602   -4.2347   -2.2817
   202.000  -12.0123   -2.7975   -4.5620   -2.4331
   203.000  -12.0767   -3.0461   -4.9049   -2.5931
   204.000  -12.1414   -3.3063   -5.2640   -2.7614
   205.000  -12.2064   -3.5781   -5.6401   -2.9382
   206.000  -12.2717   -3.8617   -6.0337   -3.1232
   207.000  -12.3372   -4.1574   -6.4457   -3.3163
   208.000  -12.4027   -4.4654   -6.8770   -3.5175
   209.000  -12.4684   -4.7858   -7.3285   -3.7267
   210.000  -12.5341   -5.1190   -7.8014   -3.9437
   211.000  -12.5997   -5.4652   -8.2968   -4.1685
   212.000  -12.6653   -5.8246   -8.8161   -4.4008
   213.000  -12.7307   -6.1976   -9.3607   -4.6406
   214.000  -12.7958   -6.5846   -9.9322   -4.8877
   215.000  -12.8607   -6.9858  -10.5325   -5.1419
   216.000  -12.9253   -7.4017  -11.1634   -5.4030
   217.000  -12.9895   -7.8327  -11.8272   -5.6710
   218.000  -13.0533   -8.2793  -12.5259   -5.9454
   219.000  -13.1165   -8.7420  -13.2619   -6.2263
   220.000  -13.1792   -9.2213  -14.0373   -6.5132
   221.000  -13.2413   -9.7179  -14.8537   -6.8059
   222.000  -13.3028  -10.2324  -15.7121   -7.1041
   223.000  -13.3635  -10.7656  -16.6112   -7.4076
   224.000  -13.4235  -11.3182  -17.5468   -7.7159
   225.000  -13.4826  -11.8912  -18.5085   -8.0286
   226.000  -13.5409  -12.4856  -19.4765   -8.3455
   227.000  -13.5983  -13.1024  -20.4167   -8.6660
   228.000  -13.6548  -13.7429  -21.2764   -8.9896
   229.000  -13.7103  -14.4084  -21.9853   -9.3158
   230.000  -13.7647  -15.1005  -22.4693   -9.6441
   231.000  -13.8181  -15.8209  -22.6776   -9.9738
   232.000  -13.8703  -16.5716  -22.6084  -10.3043
   233.000  -13.9215  -17.3548  -22.3099  -10.6348
   234.000  -13.9714  -18.1730  -21.8556  -10.9646
   235.000  -14.0202  -19.0292  -21.3163  -11.2929
   236.000  -14.0677  -19.9267  -20.7460  -11.6188
   237.000  -14.1140  -20.8695  -20.1798  -11.9414
   238.000  -14.1590  -21.8621  -19.6381  -12.2597
   239.000  -14.2027  -22.9101  -19.1316  -12.5728
   240.000  -14.2451  -24.0197  -18.6648  -12.8795
   241.000  -14.2862  -25.1987  -18.2389  -13.1788
   242.000  -14.3259  -26.4563  -17.8530  -13.4695
   243.000  -14.3643  -27.8036  -17.5052  -13.7506
   244.000  -14.4012  -29.2537  -17.1935  -14.0210
   245.000  -14.4368  -30.0000  -16.9153  -14.2796
   246.000  -14.4710  -30.0000  -16.6684  -14.5253
   247.000  -14.5038  -30.0000  -16.4503  -14.7571
   248.000  -14.5352  -30.0000  -16.2591  -14.9741
   249.000  -14.5652  -30.0000  -16.0928  -15.1755
   250.000  -14.5938  -30.0000  -15.9494  -15.3606
   251.000  -14.6209  -30.0000  -15.8275  -15.5289
   252.000  -14.6467  -30.0000  -15.7253  -15.6799
   253.000  -14.6710  -30.0000  -15.6415  -15.8134
   254.000  -14.6939  -30.0000  -15.5747  -15.9293
   255.000  -14.7154  -30.0000  -15.5237  -16.0279
   256.000  -14.7355  -30.0000  -15.4874  -16.1093
   257.000  -14.7542  -30.0000  -15.4645  -16.1740
   258.000  -14.7715  -30.0000  -15.4540  -16.2228
   259.000  -14.7874  -30.0000  -15.4550  -16.2563
   260.000  -14.8019  -30.0000  -15.4663  -16.2754
   261.000  -14.8150  -30.0000  -15.4871  -16.2812
   262.000  -14.8267  -30.0000  -15.5162  -16.2749
   263.000  -14.8370  -30.0000  -15.5528  -16.2575
   264.000  -14.8460  -30.0000  -15.5959  -16.2304
   265.000  -14.8535  -30.0000  -15.6445  -16.1947
   266.000  -14.8597  -30.0000  -15.6975  -16.1518
   267.000  -14.8645  -30.0000  -15.7539  -16.1029
   268.000  -14.8680  -30.0000  -15.8128  -16.0493
   269.000  -14.8700  -30.0000  -15.8729  -15.9923
   270.000  -14.8707  -30.0000  -15.9331  -15.9331
   271.000  -14.8700  -30.0000  -15.9923  -15.8729
   272.000  -14.8680  -30.0000  -16.0493  -15.8128
   273.000  -14.8645  -30.0000  -16.1029  -15.7539
   274.000  -14.8597  -30.0000  -16.1518  -15.6975
   275.000  -14.8535  -30.0000  -16.1947  -15.6445
   276.000  -14.8460  -30.0000  -16.2304  -15.5959
   277.000  -14.8370  -30.0000  -16.2575  -15.5528
   278.000  -14.8267  -30.0000  -16.2749  -15.5162
   279.000  -14.8150  -30.0000  -16.2812  -15.4871
   280.000  -14.8019  -30.0000  -16.2754  -15.4663
   281.000  -14.7874  -30.0000  -16.2563  -15.4550
   282.000  -14.7715  -30.0000  -16.2228  -15.4540
   283.000  -14.7542  -30.0000  -16.1740  -15.4645
   284.000  -14.7355  -30.0000  -16.1093  -15.4874
   285.000  -14.7154  -30.0000  -16.0279  -15.5237
   286.000  -14.6939  -30.0000  -15.9293  -15.5747
   287.000  -14.6710  -30.0000  -15.8134  -15.6415
   288.000  -14.6467  -30.0000  -15.6799  -15.7253
   289.000  -14.6209  -30.0000  -15.5289  -15.8275
   290.000  -14.5938  -30.0000  -15.3606  -15.9494
   291.000  -14.5652  -30.0000  -15.1755  -16.0928
   292.000  -14.5352  -30.0000  -14.9741  -16.2591
   293.000  -14.5038  -30.0000  -14.7571  -16.4503
   294.000  -14.4710  -30.0000  -14.5253  -16.6684
   295.000  -14.4368  -30.0000  -14.2796  -16.9153
   296.000  -14.4012  -29.2537  -14.0210  -17.1935
   297.000  -14.3643  -27.8036  -13.7506  -17.5052
   298.000  -14.3259  -26.4563  -13.4695  -17.8530
   299.000  -14.2862  -25.1987  -13.1788  -18.2389
   300.000  -14.2451  -24.0197  -12.8795  -18.6648
   301.000  -14.2027  -22.9101  -12.5728  -19.1316
   302.000  -14.1590  -21.8621  -12.2597  -19.6381
   303.000  -14.1140  -20.8695  -11.9414  -20.1798
   304.000  -14.0677  -19.9267  -11.6188  -20.7460
   305.000  -14.0202  -19.0292  -11.2929  -21.3163
   306.000  -13.9714  -18.1730  -10.9646  -21.8556
   307.000  -13.9215  -17.3548  -10.6348  -22.3099
   308.000  -13.8703  -16.5716  -10.3043  -22.6084
   309.000  -13.8181  -15.8209   -9.9738  -22.6776
   310.000  -13.7647  -15.1005   -9.6441  -22.4693
   311.000  -13.7103  -14.4084   -9.3158  -21.9853
   312.000  -13.6548  -13.7429   -8.9896  -21.2764
   313.000  -13.5983  -13.1024   -8.6660  -20.4167
   314.000  -13.5409  -12.4856   -8.3455  -19.4765
   315.000  -13.4826  -11.8912   -8.0286  -18.5085
   316.000  -13.4235  -11.3182   -7.7159  -17.5468
   317.000  -13.3635  -10.7656   -7.4076  -16.6112
   318.000  -13.3028  -10.2324   -7.1041  -15.7121
   319.000  -13.2413   -9.7179   -6.8059  -14.8537
   320.000  -13.1792   -9.2213   -6.5132  -14.0373
   321.000  -13.1165   -8.7420   -6.2263  -13.2619
   322.000  -13.0533   -8.2793   -5.9454  -12.5259
   323.000  -12.9895   -7.8327   -5.6710  -11.8272
   324.000  -12.9253   -7.4017   -5.4030  -11.1634
   325.000  -12.8607   -6.9858   -5.1419  -10.5325
   326.000  -12.7958   -6.5846   -4.8877   -9.9322
   327.000  -12.7307   -6.1976   -4.6406   -9.3607
   328.000  -12.6653   -5.8246   -4.4008   -8.8161
   329.000  -12.5997   -5.4652   -4.1685   -8.2968
   330.000  -12.5341   -5.1190   -3.9437   -7.8014
   331.000  -12.4684   -4.7858   -3.7267   -7.3285
   332.000  -12.4027   -4.4654   -3.5175   -6.8770
   333.000  -12.3372   -4.1574   -3.3163   -6.4457
   334.000  -12.2717   -3.8617   -3.1232   -6.0337
   335.000  -12.2064   -3.5781   -2.9382   -5.6401
   336.000  -12.1414   -3.3063   -2.7614   -5.2640
   337.000  -12.0767   -3.0461   -2.5931   -4.9049
   338.000  -12.0123   -2.7975   -2.4331   -4.5620
   339.000  -11.9484   -2.5602   -2.2817   -4.2347
   340.000  -11.8848   -2.3341   -2.1389   -3.9225
   341.000  -11.8218   -2.1191   -2.0047   -3.6249
   342.000  -11.7594   -1.9151   -1.8793   -3.3414
   343.000  -11.6976   -1.7218   -1.7627   -3.0716
   344.000  -11.6364   -1.5393   -1.6551   -2.8151
   345.000  -11.5759   -1.3674   -1.5564   -2.5716
   346.000  -11.5161   -1.2060   -1.4667   -2.3407
   347.000  -11.4571   -1.0550   -1.3862   -2.1221
   348.000  -11.3990   -0.9144   -1.3148   -1.9155
   349.000  -11.3417   -0.7841   -1.2527   -1.7207
   350.000  -11.2853   -0.6640   -1.1999   -1.5375
   351.000  -11.2299   -0.5541   -1.1566   -1.3655
   352.000  -11.1754   -0.4542   -1.1227   -1.2047
   353.000  -11.1219   -0.3644   -1.0984   -1.0547
   354.000  -11.0695   -0.2845   -1.0837   -0.9154
   355.000  -11.0181   -0.2146   -1.0788   -0.7866
   356.000  -10.9678   -0.1545   -1.0837   -0.6681
   357.000  -10.9186   -0.1043   -1.0985   -0.5598
   358.000  -10.8705   -0.0640   -1.1233   -0.4616
   359.000  -10.8236   -0.0334   -1.1583   -0.3732
   360.000  -10.7779   -0.0125   -1.2035   -0.2945




