 [antenna_pattern.dat]

  É” = 0.000 Åãplane
   É∆(deg)       EÉ”       EÉ∆       ER        EL 
     0.000  -30.0000  -30.0000  -30.0000  -30.0000
     1.000  -30.0000  -30.0000  -30.0000  -30.0000
     2.000  -30.0000  -30.0000  -30.0000  -30.0000
     3.000  -30.0000  -27.8907  -27.8907  -27.8907
     4.000  -30.0000  -25.3900  -25.3900  -25.3900
     5.000  -30.0000  -23.4493  -23.4493  -23.4493
     6.000  -30.0000  -21.8627  -21.8627  -21.8627
     7.000  -30.0000  -20.5202  -20.5202  -20.5202
     8.000  -30.0000  -19.3563  -19.3563  -19.3563
     9.000  -30.0000  -18.3287  -18.3287  -18.3287
    10.000  -30.0000  -17.4085  -17.4085  -17.4085
    11.000  -30.0000  -16.5752  -16.5752  -16.5752
    12.000  -30.0000  -15.8135  -15.8135  -15.8135
    13.000  -30.0000  -15.1120  -15.1120  -15.1120
    14.000  -30.0000  -14.4616  -14.4616  -14.4616
    15.000  -30.0000  -13.8552  -13.8552  -13.8552
    16.000  -30.0000  -13.2872  -13.2872  -13.2872
    17.000  -30.0000  -12.7530  -12.7530  -12.7530
    18.000  -30.0000  -12.2485  -12.2485  -12.2485
    19.000  -30.0000  -11.7707  -11.7707  -11.7707
    20.000  -30.0000  -11.3168  -11.3168  -11.3168
    21.000  -30.0000  -10.8844  -10.8844  -10.8844
    22.000  -30.0000  -10.4716  -10.4716  -10.4716
    23.000  -30.0000  -10.0767  -10.0767  -10.0767
    24.000  -30.0000   -9.6982   -9.6982   -9.6982
    25.000  -30.0000   -9.3348   -9.3348   -9.3348
    26.000  -30.0000   -8.9853   -8.9853   -8.9853
    27.000  -30.0000   -8.6488   -8.6488   -8.6488
    28.000  -30.0000   -8.3243   -8.3243   -8.3243
    29.000  -30.0000   -8.0111   -8.0111   -8.0111
    30.000  -30.0000   -7.7085   -7.7085   -7.7085
    31.000  -30.0000   -7.4157   -7.4157   -7.4157
    32.000  -30.0000   -7.1323   -7.1323   -7.1323
    33.000  -30.0000   -6.8578   -6.8578   -6.8578
    34.000  -30.0000   -6.5917   -6.5917   -6.5917
    35.000  -30.0000   -6.3336   -6.3336   -6.3336
    36.000  -30.0000   -6.0831   -6.0831   -6.0831
    37.000  -30.0000   -5.8398   -5.8398   -5.8398
    38.000  -30.0000   -5.6036   -5.6036   -5.6036
    39.000  -30.0000   -5.3740   -5.3740   -5.3740
    40.000  -30.0000   -5.1509   -5.1509   -5.1509
    41.000  -30.0000   -4.9340   -4.9340   -4.9340
    42.000  -30.0000   -4.7231   -4.7231   -4.7231
    43.000  -30.0000   -4.5180   -4.5180   -4.5180
    44.000  -30.0000   -4.3186   -4.3186   -4.3186
    45.000  -30.0000   -4.1246   -4.1246   -4.1246
    46.000  -30.0000   -3.9360   -3.9360   -3.9360
    47.000  -30.0000   -3.7527   -3.7527   -3.7527
    48.000  -30.0000   -3.5744   -3.5744   -3.5744
    49.000  -30.0000   -3.4011   -3.4011   -3.4011
    50.000  -30.0000   -3.2327   -3.2327   -3.2327
    51.000  -30.0000   -3.0691   -3.0691   -3.0691
    52.000  -30.0000   -2.9102   -2.9102   -2.9102
    53.000  -30.0000   -2.7560   -2.7560   -2.7560
    54.000  -30.0000   -2.6063   -2.6063   -2.6063
    55.000  -30.0000   -2.4612   -2.4612   -2.4612
    56.000  -30.0000   -2.3205   -2.3205   -2.3205
    57.000  -30.0000   -2.1842   -2.1842   -2.1842
    58.000  -30.0000   -2.0523   -2.0523   -2.0523
    59.000  -30.0000   -1.9246   -1.9246   -1.9246
    60.000  -30.0000   -1.8013   -1.8013   -1.8013
    61.000  -30.0000   -1.6822   -1.6822   -1.6822
    62.000  -30.0000   -1.5674   -1.5674   -1.5674
    63.000  -30.0000   -1.4567   -1.4567   -1.4567
    64.000  -30.0000   -1.3501   -1.3501   -1.3501
    65.000  -30.0000   -1.2478   -1.2478   -1.2478
    66.000  -30.0000   -1.1495   -1.1495   -1.1495
    67.000  -30.0000   -1.0553   -1.0553   -1.0553
    68.000  -30.0000   -0.9652   -0.9652   -0.9652
    69.000  -30.0000   -0.8792   -0.8792   -0.8792
    70.000  -30.0000   -0.7973   -0.7973   -0.7973
    71.000  -30.0000   -0.7194   -0.7194   -0.7194
    72.000  -30.0000   -0.6455   -0.6455   -0.6455
    73.000  -30.0000   -0.5756   -0.5756   -0.5756
    74.000  -30.0000   -0.5098   -0.5098   -0.5098
    75.000  -30.0000   -0.4480   -0.4480   -0.4480
    76.000  -30.0000   -0.3902   -0.3902   -0.3902
    77.000  -30.0000   -0.3364   -0.3364   -0.3364
    78.000  -30.0000   -0.2866   -0.2866   -0.2866
    79.000  -30.0000   -0.2408   -0.2408   -0.2408
    80.000  -30.0000   -0.1990   -0.1990   -0.1990
    81.000  -30.0000   -0.1612   -0.1612   -0.1612
    82.000  -30.0000   -0.1273   -0.1273   -0.1273
    83.000  -30.0000   -0.0975   -0.0975   -0.0975
    84.000  -30.0000   -0.0716   -0.0716   -0.0716
    85.000  -30.0000   -0.0497   -0.0497   -0.0497
    86.000  -30.0000   -0.0318   -0.0318   -0.0318
    87.000  -30.0000   -0.0179   -0.0179   -0.0179
    88.000  -30.0000   -0.0080   -0.0080   -0.0080
    89.000  -30.0000   -0.0020   -0.0020   -0.0020
    90.000  -30.0000   -0.0000   -0.0000   -0.0000
    91.000  -30.0000   -0.0020   -0.0020   -0.0020
    92.000  -30.0000   -0.0080   -0.0080   -0.0080
    93.000  -30.0000   -0.0179   -0.0179   -0.0179
    94.000  -30.0000   -0.0318   -0.0318   -0.0318
    95.000  -30.0000   -0.0497   -0.0497   -0.0497
    96.000  -30.0000   -0.0716   -0.0716   -0.0716
    97.000  -30.0000   -0.0975   -0.0975   -0.0975
    98.000  -30.0000   -0.1273   -0.1273   -0.1273
    99.000  -30.0000   -0.1612   -0.1612   -0.1612
   100.000  -30.0000   -0.1990   -0.1990   -0.1990
   101.000  -30.0000   -0.2408   -0.2408   -0.2408
   102.000  -30.0000   -0.2866   -0.2866   -0.2866
   103.000  -30.0000   -0.3364   -0.3364   -0.3364
   104.000  -30.0000   -0.3902   -0.3902   -0.3902
   105.000  -30.0000   -0.4480   -0.4480   -0.4480
   106.000  -30.0000   -0.5098   -0.5098   -0.5098
   107.000  -30.0000   -0.5756   -0.5756   -0.5756
   108.000  -30.0000   -0.6455   -0.6455   -0.6455
   109.000  -30.0000   -0.7194   -0.7194   -0.7194
   110.000  -30.0000   -0.7973   -0.7973   -0.7973
   111.000  -30.0000   -0.8792   -0.8792   -0.8792
   112.000  -30.0000   -0.9652   -0.9652   -0.9652
   113.000  -30.0000   -1.0553   -1.0553   -1.0553
   114.000  -30.0000   -1.1495   -1.1495   -1.1495
   115.000  -30.0000   -1.2478   -1.2478   -1.2478
   116.000  -30.0000   -1.3501   -1.3501   -1.3501
   117.000  -30.0000   -1.4567   -1.4567   -1.4567
   118.000  -30.0000   -1.5674   -1.5674   -1.5674
   119.000  -30.0000   -1.6822   -1.6822   -1.6822
   120.000  -30.0000   -1.8013   -1.8013   -1.8013
   121.000  -30.0000   -1.9246   -1.9246   -1.9246
   122.000  -30.0000   -2.0523   -2.0523   -2.0523
   123.000  -30.0000   -2.1842   -2.1842   -2.1842
   124.000  -30.0000   -2.3205   -2.3205   -2.3205
   125.000  -30.0000   -2.4612   -2.4612   -2.4612
   126.000  -30.0000   -2.6063   -2.6063   -2.6063
   127.000  -30.0000   -2.7560   -2.7560   -2.7560
   128.000  -30.0000   -2.9102   -2.9102   -2.9102
   129.000  -30.0000   -3.0691   -3.0691   -3.0691
   130.000  -30.0000   -3.2327   -3.2327   -3.2327
   131.000  -30.0000   -3.4011   -3.4011   -3.4011
   132.000  -30.0000   -3.5744   -3.5744   -3.5744
   133.000  -30.0000   -3.7527   -3.7527   -3.7527
   134.000  -30.0000   -3.9360   -3.9360   -3.9360
   135.000  -30.0000   -4.1246   -4.1246   -4.1246
   136.000  -30.0000   -4.3186   -4.3186   -4.3186
   137.000  -30.0000   -4.5180   -4.5180   -4.5180
   138.000  -30.0000   -4.7231   -4.7231   -4.7231
   139.000  -30.0000   -4.9340   -4.9340   -4.9340
   140.000  -30.0000   -5.1509   -5.1509   -5.1509
   141.000  -30.0000   -5.3740   -5.3740   -5.3740
   142.000  -30.0000   -5.6036   -5.6036   -5.6036
   143.000  -30.0000   -5.8398   -5.8398   -5.8398
   144.000  -30.0000   -6.0831   -6.0831   -6.0831
   145.000  -30.0000   -6.3336   -6.3336   -6.3336
   146.000  -30.0000   -6.5917   -6.5917   -6.5917
   147.000  -30.0000   -6.8578   -6.8578   -6.8578
   148.000  -30.0000   -7.1323   -7.1323   -7.1323
   149.000  -30.0000   -7.4157   -7.4157   -7.4157
   150.000  -30.0000   -7.7085   -7.7085   -7.7085
   151.000  -30.0000   -8.0111   -8.0111   -8.0111
   152.000  -30.0000   -8.3243   -8.3243   -8.3243
   153.000  -30.0000   -8.6488   -8.6488   -8.6488
   154.000  -30.0000   -8.9853   -8.9853   -8.9853
   155.000  -30.0000   -9.3348   -9.3348   -9.3348
   156.000  -30.0000   -9.6982   -9.6982   -9.6982
   157.000  -30.0000  -10.0767  -10.0767  -10.0767
   158.000  -30.0000  -10.4716  -10.4716  -10.4716
   159.000  -30.0000  -10.8844  -10.8844  -10.8844
   160.000  -30.0000  -11.3168  -11.3168  -11.3168
   161.000  -30.0000  -11.7707  -11.7707  -11.7707
   162.000  -30.0000  -12.2485  -12.2485  -12.2485
   163.000  -30.0000  -12.7530  -12.7530  -12.7530
   164.000  -30.0000  -13.2872  -13.2872  -13.2872
   165.000  -30.0000  -13.8552  -13.8552  -13.8552
   166.000  -30.0000  -14.4616  -14.4616  -14.4616
   167.000  -30.0000  -15.1120  -15.1120  -15.1120
   168.000  -30.0000  -15.8135  -15.8135  -15.8135
   169.000  -30.0000  -16.5752  -16.5752  -16.5752
   170.000  -30.0000  -17.4085  -17.4085  -17.4085
   171.000  -30.0000  -18.3287  -18.3287  -18.3287
   172.000  -30.0000  -19.3563  -19.3563  -19.3563
   173.000  -30.0000  -20.5202  -20.5202  -20.5202
   174.000  -30.0000  -21.8627  -21.8627  -21.8627
   175.000  -30.0000  -23.4493  -23.4493  -23.4493
   176.000  -30.0000  -25.3900  -25.3900  -25.3900
   177.000  -30.0000  -27.8907  -27.8907  -27.8907
   178.000  -30.0000  -30.0000  -30.0000  -30.0000
   179.000  -30.0000  -30.0000  -30.0000  -30.0000
   180.000  -30.0000  -30.0000  -30.0000  -30.0000
   181.000  -30.0000  -30.0000  -30.0000  -30.0000
   182.000  -30.0000  -30.0000  -30.0000  -30.0000
   183.000  -30.0000  -27.8907  -27.8907  -27.8907
   184.000  -30.0000  -25.3900  -25.3900  -25.3900
   185.000  -30.0000  -23.4493  -23.4493  -23.4493
   186.000  -30.0000  -21.8627  -21.8627  -21.8627
   187.000  -30.0000  -20.5202  -20.5202  -20.5202
   188.000  -30.0000  -19.3563  -19.3563  -19.3563
   189.000  -30.0000  -18.3287  -18.3287  -18.3287
   190.000  -30.0000  -17.4085  -17.4085  -17.4085
   191.000  -30.0000  -16.5752  -16.5752  -16.5752
   192.000  -30.0000  -15.8135  -15.8135  -15.8135
   193.000  -30.0000  -15.1120  -15.1120  -15.1120
   194.000  -30.0000  -14.4616  -14.4616  -14.4616
   195.000  -30.0000  -13.8552  -13.8552  -13.8552
   196.000  -30.0000  -13.2872  -13.2872  -13.2872
   197.000  -30.0000  -12.7530  -12.7530  -12.7530
   198.000  -30.0000  -12.2485  -12.2485  -12.2485
   199.000  -30.0000  -11.7707  -11.7707  -11.7707
   200.000  -30.0000  -11.3168  -11.3168  -11.3168
   201.000  -30.0000  -10.8844  -10.8844  -10.8844
   202.000  -30.0000  -10.4716  -10.4716  -10.4716
   203.000  -30.0000  -10.0767  -10.0767  -10.0767
   204.000  -30.0000   -9.6982   -9.6982   -9.6982
   205.000  -30.0000   -9.3348   -9.3348   -9.3348
   206.000  -30.0000   -8.9853   -8.9853   -8.9853
   207.000  -30.0000   -8.6488   -8.6488   -8.6488
   208.000  -30.0000   -8.3243   -8.3243   -8.3243
   209.000  -30.0000   -8.0111   -8.0111   -8.0111
   210.000  -30.0000   -7.7085   -7.7085   -7.7085
   211.000  -30.0000   -7.4157   -7.4157   -7.4157
   212.000  -30.0000   -7.1323   -7.1323   -7.1323
   213.000  -30.0000   -6.8578   -6.8578   -6.8578
   214.000  -30.0000   -6.5917   -6.5917   -6.5917
   215.000  -30.0000   -6.3336   -6.3336   -6.3336
   216.000  -30.0000   -6.0831   -6.0831   -6.0831
   217.000  -30.0000   -5.8398   -5.8398   -5.8398
   218.000  -30.0000   -5.6036   -5.6036   -5.6036
   219.000  -30.0000   -5.3740   -5.3740   -5.3740
   220.000  -30.0000   -5.1509   -5.1509   -5.1509
   221.000  -30.0000   -4.9340   -4.9340   -4.9340
   222.000  -30.0000   -4.7231   -4.7231   -4.7231
   223.000  -30.0000   -4.5180   -4.5180   -4.5180
   224.000  -30.0000   -4.3186   -4.3186   -4.3186
   225.000  -30.0000   -4.1246   -4.1246   -4.1246
   226.000  -30.0000   -3.9360   -3.9360   -3.9360
   227.000  -30.0000   -3.7527   -3.7527   -3.7527
   228.000  -30.0000   -3.5744   -3.5744   -3.5744
   229.000  -30.0000   -3.4011   -3.4011   -3.4011
   230.000  -30.0000   -3.2327   -3.2327   -3.2327
   231.000  -30.0000   -3.0691   -3.0691   -3.0691
   232.000  -30.0000   -2.9102   -2.9102   -2.9102
   233.000  -30.0000   -2.7560   -2.7560   -2.7560
   234.000  -30.0000   -2.6063   -2.6063   -2.6063
   235.000  -30.0000   -2.4612   -2.4612   -2.4612
   236.000  -30.0000   -2.3205   -2.3205   -2.3205
   237.000  -30.0000   -2.1842   -2.1842   -2.1842
   238.000  -30.0000   -2.0523   -2.0523   -2.0523
   239.000  -30.0000   -1.9246   -1.9246   -1.9246
   240.000  -30.0000   -1.8013   -1.8013   -1.8013
   241.000  -30.0000   -1.6822   -1.6822   -1.6822
   242.000  -30.0000   -1.5674   -1.5674   -1.5674
   243.000  -30.0000   -1.4567   -1.4567   -1.4567
   244.000  -30.0000   -1.3501   -1.3501   -1.3501
   245.000  -30.0000   -1.2478   -1.2478   -1.2478
   246.000  -30.0000   -1.1495   -1.1495   -1.1495
   247.000  -30.0000   -1.0553   -1.0553   -1.0553
   248.000  -30.0000   -0.9652   -0.9652   -0.9652
   249.000  -30.0000   -0.8792   -0.8792   -0.8792
   250.000  -30.0000   -0.7973   -0.7973   -0.7973
   251.000  -30.0000   -0.7194   -0.7194   -0.7194
   252.000  -30.0000   -0.6455   -0.6455   -0.6455
   253.000  -30.0000   -0.5756   -0.5756   -0.5756
   254.000  -30.0000   -0.5098   -0.5098   -0.5098
   255.000  -30.0000   -0.4480   -0.4480   -0.4480
   256.000  -30.0000   -0.3902   -0.3902   -0.3902
   257.000  -30.0000   -0.3364   -0.3364   -0.3364
   258.000  -30.0000   -0.2866   -0.2866   -0.2866
   259.000  -30.0000   -0.2408   -0.2408   -0.2408
   260.000  -30.0000   -0.1990   -0.1990   -0.1990
   261.000  -30.0000   -0.1612   -0.1612   -0.1612
   262.000  -30.0000   -0.1273   -0.1273   -0.1273
   263.000  -30.0000   -0.0975   -0.0975   -0.0975
   264.000  -30.0000   -0.0716   -0.0716   -0.0716
   265.000  -30.0000   -0.0497   -0.0497   -0.0497
   266.000  -30.0000   -0.0318   -0.0318   -0.0318
   267.000  -30.0000   -0.0179   -0.0179   -0.0179
   268.000  -30.0000   -0.0080   -0.0080   -0.0080
   269.000  -30.0000   -0.0020   -0.0020   -0.0020
   270.000  -30.0000    0.0000    0.0000    0.0000
   271.000  -30.0000   -0.0020   -0.0020   -0.0020
   272.000  -30.0000   -0.0080   -0.0080   -0.0080
   273.000  -30.0000   -0.0179   -0.0179   -0.0179
   274.000  -30.0000   -0.0318   -0.0318   -0.0318
   275.000  -30.0000   -0.0497   -0.0497   -0.0497
   276.000  -30.0000   -0.0716   -0.0716   -0.0716
   277.000  -30.0000   -0.0975   -0.0975   -0.0975
   278.000  -30.0000   -0.1273   -0.1273   -0.1273
   279.000  -30.0000   -0.1612   -0.1612   -0.1612
   280.000  -30.0000   -0.1990   -0.1990   -0.1990
   281.000  -30.0000   -0.2408   -0.2408   -0.2408
   282.000  -30.0000   -0.2866   -0.2866   -0.2866
   283.000  -30.0000   -0.3364   -0.3364   -0.3364
   284.000  -30.0000   -0.3902   -0.3902   -0.3902
   285.000  -30.0000   -0.4480   -0.4480   -0.4480
   286.000  -30.0000   -0.5098   -0.5098   -0.5098
   287.000  -30.0000   -0.5756   -0.5756   -0.5756
   288.000  -30.0000   -0.6455   -0.6455   -0.6455
   289.000  -30.0000   -0.7194   -0.7194   -0.7194
   290.000  -30.0000   -0.7973   -0.7973   -0.7973
   291.000  -30.0000   -0.8792   -0.8792   -0.8792
   292.000  -30.0000   -0.9652   -0.9652   -0.9652
   293.000  -30.0000   -1.0553   -1.0553   -1.0553
   294.000  -30.0000   -1.1495   -1.1495   -1.1495
   295.000  -30.0000   -1.2478   -1.2478   -1.2478
   296.000  -30.0000   -1.3501   -1.3501   -1.3501
   297.000  -30.0000   -1.4567   -1.4567   -1.4567
   298.000  -30.0000   -1.5674   -1.5674   -1.5674
   299.000  -30.0000   -1.6822   -1.6822   -1.6822
   300.000  -30.0000   -1.8013   -1.8013   -1.8013
   301.000  -30.0000   -1.9246   -1.9246   -1.9246
   302.000  -30.0000   -2.0523   -2.0523   -2.0523
   303.000  -30.0000   -2.1842   -2.1842   -2.1842
   304.000  -30.0000   -2.3205   -2.3205   -2.3205
   305.000  -30.0000   -2.4612   -2.4612   -2.4612
   306.000  -30.0000   -2.6063   -2.6063   -2.6063
   307.000  -30.0000   -2.7560   -2.7560   -2.7560
   308.000  -30.0000   -2.9102   -2.9102   -2.9102
   309.000  -30.0000   -3.0691   -3.0691   -3.0691
   310.000  -30.0000   -3.2327   -3.2327   -3.2327
   311.000  -30.0000   -3.4011   -3.4011   -3.4011
   312.000  -30.0000   -3.5744   -3.5744   -3.5744
   313.000  -30.0000   -3.7527   -3.7527   -3.7527
   314.000  -30.0000   -3.9360   -3.9360   -3.9360
   315.000  -30.0000   -4.1246   -4.1246   -4.1246
   316.000  -30.0000   -4.3186   -4.3186   -4.3186
   317.000  -30.0000   -4.5180   -4.5180   -4.5180
   318.000  -30.0000   -4.7231   -4.7231   -4.7231
   319.000  -30.0000   -4.9340   -4.9340   -4.9340
   320.000  -30.0000   -5.1509   -5.1509   -5.1509
   321.000  -30.0000   -5.3740   -5.3740   -5.3740
   322.000  -30.0000   -5.6036   -5.6036   -5.6036
   323.000  -30.0000   -5.8398   -5.8398   -5.8398
   324.000  -30.0000   -6.0831   -6.0831   -6.0831
   325.000  -30.0000   -6.3336   -6.3336   -6.3336
   326.000  -30.0000   -6.5917   -6.5917   -6.5917
   327.000  -30.0000   -6.8578   -6.8578   -6.8578
   328.000  -30.0000   -7.1323   -7.1323   -7.1323
   329.000  -30.0000   -7.4157   -7.4157   -7.4157
   330.000  -30.0000   -7.7085   -7.7085   -7.7085
   331.000  -30.0000   -8.0111   -8.0111   -8.0111
   332.000  -30.0000   -8.3243   -8.3243   -8.3243
   333.000  -30.0000   -8.6488   -8.6488   -8.6488
   334.000  -30.0000   -8.9853   -8.9853   -8.9853
   335.000  -30.0000   -9.3348   -9.3348   -9.3348
   336.000  -30.0000   -9.6982   -9.6982   -9.6982
   337.000  -30.0000  -10.0767  -10.0767  -10.0767
   338.000  -30.0000  -10.4716  -10.4716  -10.4716
   339.000  -30.0000  -10.8844  -10.8844  -10.8844
   340.000  -30.0000  -11.3168  -11.3168  -11.3168
   341.000  -30.0000  -11.7707  -11.7707  -11.7707
   342.000  -30.0000  -12.2485  -12.2485  -12.2485
   343.000  -30.0000  -12.7530  -12.7530  -12.7530
   344.000  -30.0000  -13.2872  -13.2872  -13.2872
   345.000  -30.0000  -13.8552  -13.8552  -13.8552
   346.000  -30.0000  -14.4616  -14.4616  -14.4616
   347.000  -30.0000  -15.1120  -15.1120  -15.1120
   348.000  -30.0000  -15.8135  -15.8135  -15.8135
   349.000  -30.0000  -16.5752  -16.5752  -16.5752
   350.000  -30.0000  -17.4085  -17.4085  -17.4085
   351.000  -30.0000  -18.3287  -18.3287  -18.3287
   352.000  -30.0000  -19.3563  -19.3563  -19.3563
   353.000  -30.0000  -20.5202  -20.5202  -20.5202
   354.000  -30.0000  -21.8627  -21.8627  -21.8627
   355.000  -30.0000  -23.4493  -23.4493  -23.4493
   356.000  -30.0000  -25.3900  -25.3900  -25.3900
   357.000  -30.0000  -27.8907  -27.8907  -27.8907
   358.000  -30.0000  -30.0000  -30.0000  -30.0000
   359.000  -30.0000  -30.0000  -30.0000  -30.0000
   360.000  -30.0000  -30.0000  -30.0000  -30.0000




